x	intensity
0	-16609630.000
1	-16627799.000
2	-16632145.000
3	-16639204.000
4	-16638537.000
5	-16636464.000
6	-16640015.000
7	-16644387.000
8	-16648902.000
9	-16646757.000
10	-16640229.000
11	-16636196.000
12	-16637012.000
13	-16641808.000
14	-16646774.000
15	-16647536.000
16	-16646204.000
17	-16643602.000
18	-16636841.000
19	-16637380.000
20	-16628923.000
21	-16619247.000
22	-16617193.000
23	-16626108.000
24	-16632579.000
25	-16634360.000
26	-16641028.000
27	-16641149.000
28	-16641087.000
29	-16641799.000
30	-16638669.000
31	-16638483.000
32	-16634065.000
33	-16635607.000
34	-16638938.000
35	-16638670.000
36	-16640076.000
37	-16640579.000
38	-16640647.000
39	-16640394.000
40	-16642184.000
41	-16644433.000
42	-16642506.000
43	-16644751.000
44	-16645196.000
45	-16642690.000
46	-16643518.000
47	-16640562.000
48	-16645374.000
49	-16646465.000
50	-16646337.000
51	-16646594.000
52	-16645373.000
53	-16643260.000
54	-16643582.000
55	-16644096.000
56	-16643084.000
57	-16640329.000
58	-16640851.000
59	-16639192.000
60	-16637725.000
61	-16636580.000
62	-16634346.000
63	-16634731.000
64	-16631728.000
65	-16630711.000
66	-16628792.000
67	-16628029.000
68	-16626116.000
69	-16626383.000
70	-16625230.000
71	-16622988.000
72	-16619843.000
73	-16616968.000
74	-16616729.000
75	-16615524.000
76	-16615152.000
77	-16612845.000
78	-16610862.000
79	-16607722.000
80	-16608681.000
81	-16607991.000
82	-16605249.000
83	-16604874.000
84	-16602895.000
85	-16602325.000
86	-16599265.000
87	-16597539.000
88	-16598690.000
89	-16599710.000
90	-16597144.000
91	-16598289.000
92	-16597898.000
93	-16598925.000
94	-16601417.000
95	-16597196.000
96	-16590426.000
97	-16578069.000
98	-16565518.000
99	-16552097.000
100	-16544173.000
101	-16536303.000
102	-16513015.000
103	-16472367.000
104	-16431511.000
105	-16394432.000
106	-16342378.000
107	-16287800.000
108	-16232199.000
109	-16191234.000
110	-16145817.000
111	-16099723.000
112	-16048261.000
113	-15989447.000
114	-15927339.000
115	-15859386.000
116	-15772113.000
117	-15668748.000
118	-15553488.000
119	-15412547.000
120	-15263421.000
121	-15090455.000
122	-14908846.000
123	-14727091.000
124	-14547799.000
125	-14388603.000
126	-14227419.000
127	-14098012.000
128	-13977506.000
129	-13860274.000
130	-13750136.000
131	-13682844.000
132	-13626728.000
133	-13600664.000
134	-13590066.000
135	-13591749.000
136	-13593821.000
137	-13614674.000
138	-13643337.000
139	-13674119.000
140	-13704402.000
141	-13726350.000
142	-13759155.000
143	-13786351.000
144	-13824535.000
145	-13859228.000
146	-13909887.000
147	-13983315.000
148	-14069889.000
149	-14179015.000
150	-14295867.000
151	-14419719.000
152	-14551683.000
153	-14659181.000
154	-14762085.000
155	-14859559.000
156	-14967460.000
157	-15082845.000
158	-15182159.000
159	-15291030.000
160	-15410657.000
161	-15511400.000
162	-15601422.000
163	-15683476.000
164	-15771281.000
165	-15839551.000
166	-15913256.000
167	-15992631.000
168	-16054202.000
169	-16096768.000
170	-16144013.000
171	-16181209.000
172	-16230281.000
173	-16280559.000
174	-16318082.000
175	-16350750.000
176	-16391679.000
177	-16434796.000
178	-16460439.000
179	-16470795.000
180	-16479606.000
181	-16488169.000
182	-16493668.000
183	-16494168.000
184	-16502030.000
185	-16508684.000
186	-16520210.000
187	-16523019.000
188	-16525967.000
189	-16532235.000
190	-16535556.000
191	-16539530.000
192	-16550530.000
193	-16561533.000
194	-16565492.000
195	-16568170.000
196	-16573099.000
197	-16575587.000
198	-16576608.000
199	-16578343.000
200	-16582508.000
201	-16585904.000
202	-16584872.000
203	-16586025.000
204	-16586588.000
205	-16584144.000
206	-16588243.000
207	-16590926.000
208	-16598602.000
209	-16604420.000
210	-16606449.000
211	-16610284.000
212	-16595992.000
213	-16597401.000
214	-16614859.000
215	-16617804.000
216	-16620426.000
217	-16622092.000
218	-16621442.000
219	-16622971.000
220	-16625142.000
221	-16627509.000
222	-16631351.000
223	-16631852.000
224	-16631338.000
225	-16633892.000
226	-16634266.000
227	-16636442.000
228	-16636564.000
229	-16638358.000
230	-16639964.000
231	-16639321.000
232	-16639962.000
233	-16639892.000
234	-16640333.000
235	-16640398.000
236	-16641426.000
237	-16639627.000
238	-16636864.000
239	-16637763.000
240	-16640518.000
241	-16641610.000
242	-16641161.000
243	-16641932.000
244	-16642574.000
245	-16642831.000
246	-16643602.000
247	-16641610.000
248	-16640518.000
249	-16641610.000
250	-16641867.000
251	-16642446.000
252	-16641546.000
253	-16642887.000
254	-16643016.000
255	-16643658.000
256	-16645192.000
257	-16644802.000
258	-16644610.000
259	-16643774.000
260	-16644416.000
261	-16645628.000
262	-16644600.000
263	-16645627.000
264	-16645626.000
265	-16647620.000
266	-16646593.000
267	-16646465.000
268	-16646339.000
269	-16645568.000
270	-16645891.000
271	-16645763.000
272	-16645827.000
273	-16645695.000
274	-16645889.000
275	-16645694.000
276	-16645375.000
277	-16646208.000
278	-16645374.000
279	-16645694.000
280	-16645888.000
281	-16644152.000
282	-16644860.000
283	-16643831.000
284	-16644860.000
285	-16645116.000
286	-16645951.000
287	-16647686.000
288	-16645574.000
289	-16644868.000
290	-16644674.000
291	-16643711.000
292	-16644737.000
293	-16644929.000
294	-16644865.000
295	-16644542.000
296	-16644735.000
297	-16646086.000
298	-16645829.000
299	-16646858.000
300	-16645126.000
301	-16645511.000
302	-16645770.000
303	-16645321.000
304	-16642934.000
305	-16644281.000
306	-16647172.000
307	-16647622.000
308	-16645630.000
309	-16645052.000
310	-16645630.000
311	-16646144.000
312	-16645437.000
313	-16647429.000
314	-16646273.000
315	-16646016.000
316	-16644473.000
317	-16643767.000
318	-16645180.000
319	-16645502.000
320	-16645823.000
321	-16645309.000
322	-16644795.000
323	-16646337.000
324	-16646915.000
325	-16646980.000
326	-16646659.000
327	-16646081.000
328	-16645760.000
329	-16646019.000
330	-16646598.000
331	-16646469.000
332	-16645891.000
333	-16645441.000
334	-16642806.000
335	-16643511.000
336	-16645309.000
337	-16646594.000
338	-16647365.000
339	-16646915.000
340	-16646465.000
341	-16645245.000
342	-16645630.000
343	-16644666.000
344	-16645694.000
345	-16646915.000
346	-16647043.000
347	-16646787.000
348	-16645180.000
349	-16645630.000
350	-16645630.000
351	-16646144.000
352	-16646658.000
353	-16645116.000
354	-16645245.000
355	-16644856.000
356	-16644987.000
357	-16646787.000
358	-16646401.000
359	-16647558.000
360	-16647879.000
361	-16648072.000
362	-16647493.000
363	-16646080.000
364	-16645694.000
365	-16645116.000
366	-16644217.000
367	-16644024.000
368	-16645184.000
369	-16645181.000
370	-16645887.000
371	-16646016.000
372	-16646208.000
373	-16645823.000
374	-16645180.000
375	-16645823.000
376	-16644666.000
377	-16644474.000
378	-16644988.000
379	-16645630.000
380	-16647044.000
381	-16646144.000
382	-16646658.000
383	-16646337.000
384	-16646851.000
385	-16646658.000
386	-16645630.000
387	-16645052.000
388	-16644988.000
389	-16645116.000
390	-16644732.000
391	-16644089.000
392	-16644733.000
393	-16645695.000
394	-16645952.000
395	-16646338.000
396	-16645888.000
397	-16645952.000
398	-16646723.000
399	-16645568.000
400	-16644158.000
401	-16642551.000
402	-16646144.000
403	-16646201.000
404	-16646902.000
405	-16647990.000
406	-16645804.000
407	-16637577.000
408	-16637257.000
409	-16647474.000
410	-16647029.000
411	-16645553.000
412	-16645626.000
413	-16645181.000
414	-16642168.000
415	-16642360.000
416	-16644348.000
417	-16646208.000
418	-16646465.000
419	-16646851.000
420	-16645052.000
421	-16645951.000
422	-16646851.000
423	-16647750.000
424	-16646337.000
425	-16644988.000
426	-16645052.000
427	-16646787.000
428	-16646273.000
429	-16646208.000
430	-16645052.000
431	-16645052.000
432	-16646144.000
433	-16645951.000
434	-16646658.000
435	-16644602.000
436	-16644602.000
437	-16644602.000
438	-16646144.000
439	-16646786.000
440	-16649420.000
441	-16647622.000
442	-16646530.000
443	-16646016.000
444	-16643574.000
445	-16644217.000
446	-16643253.000
447	-16645502.000
448	-16645502.000
449	-16646401.000
450	-16646787.000
451	-16646273.000
452	-16645823.000
453	-16646594.000
454	-16645310.000
455	-16646531.000
456	-16645759.000
457	-16645245.000
458	-16644923.000
459	-16645823.000
460	-16647558.000
461	-16645823.000
462	-16646658.000
463	-16645440.000
464	-16646405.000
465	-16646273.000
466	-16646273.000
467	-16646080.000
468	-16641518.000
469	-16643381.000
470	-16645373.000
471	-16645951.000
472	-16644152.000
473	-16644345.000
474	-16645437.000
475	-16646016.000
476	-16646144.000
477	-16646655.000
478	-16645884.000
479	-16645694.000
480	-16646144.000
481	-16645630.000
482	-16646144.000
483	-16646658.000
484	-16646337.000
485	-16645437.000
486	-16644795.000
487	-16644923.000
488	-16645951.000
489	-16645502.000
490	-16644795.000
491	-16645180.000
492	-16646273.000
493	-16646401.000
494	-16646787.000
495	-16646273.000
496	-16645052.000
497	-16645180.000
498	-16645694.000
499	-16646144.000
500	-16645502.000
501	-16644988.000
502	-16644731.000
503	-16644218.000
504	-16645182.000
505	-16644539.000
506	-16645438.000
507	-16644345.000
508	-16644601.000
509	-16645498.000
510	-16644926.000
511	-16645374.000
512	-16645950.000
513	-16642222.000
514	-16643505.000
515	-16645373.000
516	-16646330.000
517	-16644663.000
518	-16643374.000
519	-16633857.000
520	-16635527.000
521	-16646074.000
522	-16645051.000
523	-16645182.000
524	-16644282.000
525	-16643063.000
526	-16643576.000
527	-16644800.000
528	-16644094.000
529	-16644735.000
530	-16645568.000
531	-16645952.000
532	-16646137.000
533	-16646073.000
534	-16646648.000
535	-16647035.000
536	-16647226.000
537	-16647421.000
538	-16646712.000
539	-16646393.000
540	-16646206.000
541	-16644859.000
542	-16645692.000
543	-16644473.000
544	-16645501.000
545	-16646530.000
546	-16646082.000
547	-16647234.000
548	-16644669.000
549	-16646073.000
550	-16644026.000
551	-16646334.000
552	-16644862.000
553	-16646463.000
554	-16644544.000
555	-16644668.000
556	-16644288.000
557	-16644603.000
558	-16644284.000
559	-16646270.000
560	-16645502.000
561	-16646143.000
562	-16645113.000
563	-16644663.000
564	-16645566.000
565	-16646080.000
566	-16646273.000
567	-16647044.000
568	-16646401.000
569	-16646594.000
570	-16647236.000
571	-16647043.000
572	-16646979.000
573	-16645630.000
574	-16645694.000
575	-16645630.000
576	-16643638.000
577	-16645630.000
578	-16644731.000
579	-16646272.000
580	-16646401.000
581	-16647108.000
582	-16647365.000
583	-16646015.000
584	-16644602.000
585	-16644538.000
586	-16645373.000
587	-16645887.000
588	-16647044.000
589	-16646851.000
590	-16646208.000
591	-16644152.000
592	-16645887.000
593	-16646144.000
594	-16645501.000
595	-16646143.000
596	-16646078.000
597	-16645628.000
598	-16646592.000
599	-16645500.000
600	-16645564.000
601	-16644474.000
602	-16642546.000
603	-16644667.000
604	-16644281.000
605	-16645632.000
606	-16644219.000
607	-16644604.000
608	-16644925.000
609	-16646146.000
610	-16646852.000
611	-16645566.000
612	-16645116.000
613	-16644088.000
614	-16645116.000
615	-16645630.000
616	-16645951.000
617	-16646144.000
618	-16646209.000
619	-16646660.000
620	-16646660.000
621	-16646659.000
622	-16647045.000
623	-16647365.000
624	-16646466.000
625	-16646273.000
626	-16645630.000
627	-16644923.000
628	-16645694.000
629	-16646851.000
630	-16646593.000
631	-16646978.000
632	-16646078.000
633	-16646656.000
634	-16646209.000
635	-16644859.000
636	-16645116.000
637	-16644795.000
638	-16645245.000
639	-16645181.000
640	-16645502.000
641	-16646658.000
642	-16647044.000
643	-16645630.000
644	-16644409.000
645	-16643703.000
646	-16644088.000
647	-16646144.000
648	-16644861.000
649	-16645831.000
650	-16643393.000
651	-16643141.000
652	-16642321.000
653	-16641229.000
654	-16640273.000
655	-16638217.000
656	-16637197.000
657	-16637330.000
658	-16636687.000
659	-16639322.000
660	-16637338.000
661	-16632801.000
662	-16631151.000
663	-16627191.000
664	-16627573.000
665	-16623338.000
666	-16618616.000
667	-16617214.000
668	-16615352.000
669	-16614085.000
670	-16609808.000
671	-16604827.000
672	-16596264.000
673	-16587198.000
674	-16565647.000
675	-16547046.000
676	-16532154.000
677	-16513990.000
678	-16484629.000
679	-16452026.000
680	-16425870.000
681	-16399147.000
682	-16365979.000
683	-16339183.000
684	-16311804.000
685	-16289537.000
686	-16267668.000
687	-16245601.000
688	-16215675.000
689	-16192826.000
690	-16181554.000
691	-16173171.000
692	-16157761.000
693	-16144845.000
694	-16135895.000
695	-16127504.000
696	-16121483.000
697	-16114058.000
698	-16106827.000
699	-16103623.000
700	-16096451.000
701	-16093876.000
702	-16094452.000
703	-16093117.000
704	-16100799.000
705	-16103240.000
706	-16103762.000
707	-16106202.000
708	-16110165.000
709	-16118417.000
710	-16121369.000
711	-16129492.000
712	-16133132.000
713	-16134477.000
714	-16128656.000
715	-16135181.000
716	-16139277.000
717	-16148293.000
718	-16150732.000
719	-16162686.000
720	-16164041.000
721	-16170938.000
722	-16179503.000
723	-16194085.000
724	-16210220.000
725	-16234025.000
726	-16256164.000
727	-16283468.000
728	-16318859.000
729	-16361021.000
730	-16392561.000
731	-16418715.000
732	-16433389.000
733	-16454228.000
734	-16478527.000
735	-16501861.000
736	-16514315.000
737	-16539791.000
738	-16562282.000
739	-16579232.000
740	-16594849.000
741	-16601624.000
742	-16609624.000
743	-16613269.000
744	-16615049.000
745	-16613572.000
746	-16614132.000
747	-16621059.000
748	-16622722.000
749	-16624769.000
750	-16625401.000
751	-16627187.000
752	-16630630.000
753	-16634463.000
754	-16636198.000
755	-16637542.000
756	-16636254.000
757	-16636569.000
758	-16636759.000
759	-16636621.000
760	-16638163.000
761	-16641298.000
762	-16641173.000
763	-16639752.000
764	-16639756.000
765	-16640779.000
766	-16640655.000
767	-16641871.000
768	-16642319.000
769	-16641990.000
770	-16641732.000
771	-16643143.000
772	-16642882.000
773	-16644032.000
774	-16643452.000
775	-16643705.000
776	-16644340.000
777	-16644663.000
778	-16647233.000
779	-16647231.000
780	-16645176.000
781	-16643185.000
782	-16642671.000
783	-16645115.000
784	-16646465.000
785	-16646850.000
786	-16646145.000
787	-16645246.000
788	-16644283.000
789	-16645246.000
790	-16646018.000
791	-16646531.000
792	-16647686.000
793	-16647429.000
794	-16647494.000
795	-16645694.000
796	-16646658.000
797	-16643140.000
798	-16642562.000
799	-16643397.000
800	-16643076.000
801	-16642056.000
802	-16641864.000
803	-16640900.000
804	-16643020.000
805	-16640651.000
806	-16642450.000
807	-16641236.000
808	-16639631.000
809	-16639888.000
810	-16640016.000
811	-16640723.000
812	-16641879.000
813	-16642249.000
814	-16642313.000
815	-16640514.000
816	-16642313.000
817	-16643847.000
818	-16645261.000
819	-16644939.000
820	-16643140.000
821	-16643646.000
822	-16642040.000
823	-16645503.000
824	-16645373.000
825	-16646594.000
826	-16645823.000
827	-16645887.000
828	-16646016.000
829	-16646337.000
830	-16645630.000
831	-16646594.000
832	-16645437.000
833	-16645052.000
834	-16644088.000
835	-16644923.000
836	-16645887.000
837	-16645959.000
838	-16645831.000
839	-16645124.000
840	-16644160.000
841	-16643389.000
842	-16643582.000
843	-16643454.000
844	-16645442.000
845	-16644225.000
846	-16644867.000
847	-16644225.000
848	-16645314.000
849	-16645250.000
850	-16645958.000
851	-16645127.000
852	-16644227.000
853	-16643513.000
854	-16644990.000
855	-16645248.000
856	-16645440.000
857	-16644672.000
858	-16643706.000
859	-16643771.000
860	-16641007.000
861	-16640044.000
862	-16642549.000
863	-16643579.000
864	-16642808.000
865	-16643639.000
866	-16643896.000
867	-16644413.000
868	-16645377.000
869	-16646530.000
870	-16645887.000
871	-16646594.000
872	-16646144.000
873	-16646530.000
874	-16645309.000
875	-16644152.000
876	-16644988.000
877	-16644474.000
878	-16644474.000
879	-16646530.000
880	-16646722.000
881	-16645245.000
882	-16643445.000
883	-16644859.000
884	-16645373.000
885	-16645575.000
886	-16643911.000
887	-16643083.000
888	-16639187.000
889	-16636250.000
890	-16634025.000
891	-16633382.000
892	-16631276.000
893	-16628595.000
894	-16625712.000
895	-16624632.000
896	-16621060.000
897	-16621460.000
898	-16620442.000
899	-16617762.000
900	-16613485.000
901	-16611621.000
902	-16609768.000
903	-16607727.000
904	-16607466.000
905	-16605540.000
906	-16605672.000
907	-16602665.000
908	-16602283.000
909	-16601905.000
910	-16599859.000
911	-16598578.000
912	-16599341.000
913	-16595769.000
914	-16591810.000
915	-16590727.000
916	-16589117.000
917	-16589005.000
918	-16586569.000
919	-16587984.000
920	-16587669.000
921	-16587281.000
922	-16587602.000
923	-16586324.000
924	-16585624.000
925	-16586327.000
926	-16585815.000
927	-16585498.000
928	-16583590.000
929	-16584035.000
930	-16583526.000
931	-16584095.000
932	-16584865.000
933	-16582747.000
934	-16580438.000
935	-16573775.000
936	-16564049.000
937	-16560409.000
938	-16556518.000
939	-16549161.000
940	-16540785.000
941	-16532850.000
942	-16530351.000
943	-16529075.000
944	-16520382.000
945	-16518142.000
946	-16513976.000
947	-16511167.000
948	-16505802.000
949	-16505676.000
950	-16503820.000
951	-16503110.000
952	-16503933.000
953	-16501177.000
954	-16497605.000
955	-16498381.000
956	-16494936.000
957	-16480439.000
958	-16468549.000
959	-16446812.000
960	-16429533.000
961	-16399409.000
962	-16374654.000
963	-16349839.000
964	-16305446.000
965	-16274997.000
966	-16239748.000
967	-16208982.000
968	-16161630.000
969	-16115618.000
970	-16065441.000
971	-16016088.000
972	-15928731.000
973	-15824684.000
974	-15693607.000
975	-15537766.000
976	-15341724.000
977	-15130897.000
978	-14906096.000
979	-14683222.000
980	-14425812.000
981	-14161024.000
982	-13882496.000
983	-13611624.000
984	-13319203.000
985	-12983536.000
986	-12586397.000
987	-12138969.000
988	-11593365.000
989	-10968395.000
990	-10298235.000
991	-9581487.000
992	-8843392.000
993	-8091850.500
994	-7377627.000
995	-6708204.000
996	-6061632.000
997	-5437604.500
998	-4851369.000
999	-4345153.500
1000	-3925863.000
1001	-3607668.750
1002	-3371930.500
1003	-3248912.250
1004	-3226385.000
1005	-3268303.250
1006	-3354385.500
1007	-3471059.250
1008	-3601236.750
1009	-3737186.750
1010	-3906580.000
1011	-4086559.000
1012	-4275304.500
1013	-4434703.500
1014	-4601282.000
1015	-4806226.500
1016	-5078765.500
1017	-5442276.000
1018	-5877659.000
1019	-6356525.000
1020	-6861237.500
1021	-7411878.000
1022	-7967141.000
1023	-8533675.000
1024	-9092509.000
1025	-9639906.000
1026	-10181062.000
1027	-10704299.000
1028	-11210214.000
1029	-11703963.000
1030	-12169678.000
1031	-12612448.000
1032	-13023533.000
1033	-13395191.000
1034	-13721776.000
1035	-14029500.000
1036	-14321730.000
1037	-14588357.000
1038	-14819256.000
1039	-15016181.000
1040	-15211947.000
1041	-15387170.000
1042	-15534617.000
1043	-15667089.000
1044	-15780848.000
1045	-15877255.000
1046	-15964914.000
1047	-16046295.000
1048	-16109970.000
1049	-16171606.000
1050	-16203608.000
1051	-16228444.000
1052	-16251164.000
1053	-16275437.000
1054	-16300121.000
1055	-16324762.000
1056	-16350475.000
1057	-16382191.000
1058	-16400790.000
1059	-16410695.000
1060	-16418624.000
1061	-16426883.000
1062	-16427835.000
1063	-16429113.000
1064	-16432170.000
1065	-16433827.000
1066	-16434589.000
1067	-16437333.000
1068	-16442129.000
1069	-16444613.000
1070	-16446722.000
1071	-16448509.000
1072	-16451705.000
1073	-16452853.000
1074	-16461427.000
1075	-16461491.000
1076	-16462575.000
1077	-16462575.000
1078	-16467881.000
1079	-16469225.000
1080	-16470241.000
1081	-16472799.000
1082	-16475871.000
1083	-16481113.000
1084	-16484822.000
1085	-16484564.000
1086	-16487179.000
1087	-16488649.000
1088	-16496000.000
1089	-16505336.000
1090	-16512566.000
1091	-16519797.000
1092	-16520369.000
1093	-16520240.000
1094	-16519869.000
1095	-16522935.000
1096	-16523449.000
1097	-16522421.000
1098	-16520826.000
1099	-16520705.000
1100	-16519365.000
1101	-16519945.000
1102	-16518471.000
1103	-16518263.000
1104	-16516155.000
1105	-16515199.000
1106	-16516865.000
1107	-16513851.000
1108	-16513216.000
1109	-16512766.000
1110	-16511160.000
1111	-16504823.000
1112	-16504257.000
1113	-16504518.000
1114	-16505935.000
1115	-16500751.000
1116	-16495310.000
1117	-16495695.000
1118	-16490448.000
1119	-16482448.000
1120	-16473629.000
1121	-16466038.000
1122	-16449728.000
1123	-16438726.000
1124	-16431313.000
1125	-16413470.000
1126	-16411289.000
1127	-16397018.000
1128	-16383842.000
1129	-16374324.000
1130	-16343948.000
1131	-16310869.000
1132	-16272411.000
1133	-16216757.000
1134	-16137852.000
1135	-16060987.000
1136	-15962199.000
1137	-15856508.000
1138	-15733292.000
1139	-15594556.000
1140	-15450924.000
1141	-15299196.000
1142	-15156532.000
1143	-15017680.000
1144	-14873930.000
1145	-14720399.000
1146	-14534649.000
1147	-14335029.000
1148	-14088306.000
1149	-13773795.000
1150	-13432749.000
1151	-13050654.000
1152	-12625050.000
1153	-12186319.000
1154	-11748160.000
1155	-11340017.000
1156	-10956866.000
1157	-10610484.000
1158	-10280170.000
1159	-10020405.000
1160	-9801916.000
1161	-9637894.000
1162	-9536449.000
1163	-9489622.000
1164	-9492173.000
1165	-9517842.000
1166	-9568722.000
1167	-9643268.000
1168	-9720524.000
1169	-9785188.000
1170	-9860254.000
1171	-9921316.000
1172	-10001234.000
1173	-10105982.000
1174	-10245295.000
1175	-10412403.000
1176	-10599318.000
1177	-10828059.000
1178	-11075186.000
1179	-11340006.000
1180	-11612170.000
1181	-11904813.000
1182	-12204223.000
1183	-12499810.000
1184	-12789594.000
1185	-13065308.000
1186	-13325579.000
1187	-13578184.000
1188	-13836746.000
1189	-14089169.000
1190	-14339859.000
1191	-14576768.000
1192	-14792163.000
1193	-14988769.000
1194	-15165134.000
1195	-15321008.000
1196	-15461486.000
1197	-15579008.000
1198	-15697540.000
1199	-15804062.000
1200	-15908963.000
1201	-16009028.000
1202	-16097594.000
1203	-16161726.000
1204	-16216651.000
1205	-16266913.000
1206	-16313493.000
1207	-16343110.000
1208	-16380217.000
1209	-16416097.000
1210	-16451522.000
1211	-16468244.000
1212	-16485852.000
1213	-16493272.000
1214	-16499678.000
1215	-16503267.000
1216	-16501659.000
1217	-16510993.000
1218	-16520587.000
1219	-16529354.000
1220	-16536125.000
1221	-16540917.000
1222	-16544558.000
1223	-16547947.000
1224	-16555237.000
1225	-16556516.000
1226	-16559454.000
1227	-16562085.000
1228	-16567917.000
1229	-16574123.000
1230	-16576874.000
1231	-16577701.000
1232	-16581732.000
1233	-16586202.000
1234	-16587863.000
1235	-16588748.000
1236	-16588947.000
1237	-16593683.000
1238	-16596303.000
1239	-16599366.000
1240	-16602104.000
1241	-16605100.000
1242	-16609638.000
1243	-16610077.000
1244	-16612749.000
1245	-16614918.000
1246	-16618362.000
1247	-16621103.000
1248	-16625832.000
1249	-16628895.000
1250	-16633559.000
1251	-16635034.000
1252	-16637009.000
1253	-16636506.000
1254	-16635471.000
1255	-16635861.000
1256	-16637661.000
1257	-16638817.000
1258	-16638367.000
1259	-16637016.000
1260	-16637402.000
1261	-16638294.000
1262	-16636446.000
1263	-16636446.000
1264	-16635868.000
1265	-16637086.000
1266	-16637406.000
1267	-16639518.000
1268	-16639769.000
1269	-16635606.000
1270	-16636750.000
1271	-16640901.000
1272	-16641542.000
1273	-16643526.000
1274	-16643839.000
1275	-16649405.000
1276	-16650561.000
1277	-16651653.000
1278	-16649903.000
1279	-16652250.000
1280	-16650975.000
1281	-16655021.000
1282	-16656295.000
1283	-16659922.000
1284	-16660067.000
1285	-16647613.000
1286	-16648002.000
1287	-16647112.000
1288	-16650184.000
1289	-16648135.000
1290	-16645268.000
1291	-16646283.000
1292	-16649234.000
1293	-16650443.000
1294	-16647980.000
1295	-16630686.000
1296	-16621486.000
1297	-16618117.000
1298	-16645630.000
1299	NaN
